filename,project,experiment,version,datetime,id,success,procedure,trial_type,trial_index,time_elapsed,internal_node_id,view_history,rt,trialid,stimulus,button_pressed,response,question_order,input
38_Consent_original_2023-10-30T172150_hcynrw1w3as9nbm2vcj2.csv,38,Consent,original,2023-10-30T172150,hcynrw1w3as9nbm2vcj2,true,Consent,fullscreen,1,1071,0.0-1.0-0.0,,,,,,NA,NA,38_Consent_original_2023-10-30T172150_hcynrw1w3as9nbm2vcj2.csv
38_Consent_original_2023-10-30T172150_hcynrw1w3as9nbm2vcj2.csv,38,Consent,original,2023-10-30T172150,hcynrw1w3as9nbm2vcj2,,Consent,instructions,2,1708,0.0-2.0,"[{""""page_index"""":0,""""viewing_time"""":630}]",631,Consent_000,,,NA,NA,38_Consent_original_2023-10-30T172150_hcynrw1w3as9nbm2vcj2.csv
38_Consent_original_2023-10-30T172150_hcynrw1w3as9nbm2vcj2.csv,38,Consent,original,2023-10-30T172150,hcynrw1w3as9nbm2vcj2,,Consent,html-button-response,3,3475,0.0-3.0,,1755,Consent_001,"
        <div title=""""logo""""><p style=""""margin-bottom: 0.2in; line-height: 100%""""><img src=""""controllers/media/logo.png"""" name=""""UAI"""" align=""""bottom"""" width=""""158"""" height=""""59"""" border=""""0""""/></p></div>
        <div>
        <h3 class=""""western"""" align=""""center"""">Informed Consent</h3><br/>
        <b>Name of the project: </b>Experiment errors <br/>
        <b>Principal Researcher: </b>Gorka Navarrete, Centro de Neurociencia Social y Cognitiva (CSCN).<br/>
        <b>Goal: </b>To create a live example of how a jsPsychR survey and it's data preparation works.<br/><br/>
        <b>Procedure: </b>You will have to answer 2 or 3 questions about errors found in research protocols.<br/><br/>
        <b>Associated risks: </b>There are no risks associated with this study. Although by responding, you reveal private information, it will be used only for research purposes, protecting your privacy and confidentiality, since only grouped data will be analyzed and not individual data.<br/><br/>
         <b>Benefits: </b>There may be no immediate benefits to you as a result of participating in this study. However, the results will improve our understanding of what types of errors are more common in our research.<br/><br/>
        <b>Confidentiality: </b>By selecting """"I agree to participate"""", you give permission to the research team to analyze your data. However, all information produced in this research is confidential, and therefore will only be used for research purposes. We will not keep your name in our database, nor will there be any way to later associate the information you give us with your identity. The information we will use, both in reports and in articles derived from the study, will consist only of grouped data (for example, averages). Confidential information will be stored with a password and privately only on the computer of the responsible researcher. If you want more information or know the results of this study, you can contact the person responsible for the project (Gorka Navarrete, email: <a href=""""mailto:gorkang@gmail.com"""">gorkang@gmail.com</a>)<br/><br/>
        <b>Voluntariness: </b>Participation in this study is voluntary. You can withdraw whenever you wish without any negative consequences for this. Your withdrawal does not mean that you cannot participate in another of our studies in the future. If you have a claim or feel that your rights were violated by any of the people carrying out this study, you can contact the University Ethics Committee Universidad Adolfo Ibáñez, whose president is Paola Cañon in the phone number (562) 2331-1277, o the email: <a href=""""mailto:paola.canon.g@uai.cl"""">paola.canon.g@uai.cl</a>. <br/><br/>
        <em>When selecting “I agree to participate” you declare that you are willing to voluntarily participate in this research: </em>
        <BR><BR>
        </div>",0,NA,NA,38_Consent_original_2023-10-30T172150_hcynrw1w3as9nbm2vcj2.csv
38_Consent_original_2023-10-30T172301_negx101x8pyt3m1pey56.csv,38,Consent,original,2023-10-30T172301,negx101x8pyt3m1pey56,true,Consent,fullscreen,1,660,0.0-1.0-0.0,,,,,,NA,NA,38_Consent_original_2023-10-30T172301_negx101x8pyt3m1pey56.csv
38_Consent_original_2023-10-30T172301_negx101x8pyt3m1pey56.csv,38,Consent,original,2023-10-30T172301,negx101x8pyt3m1pey56,,Consent,instructions,2,1598,0.0-2.0,"[{""""page_index"""":0,""""viewing_time"""":936}]",936,Consent_000,,,NA,NA,38_Consent_original_2023-10-30T172301_negx101x8pyt3m1pey56.csv
38_Consent_original_2023-10-30T172301_negx101x8pyt3m1pey56.csv,38,Consent,original,2023-10-30T172301,negx101x8pyt3m1pey56,,Consent,html-button-response,3,2397,0.0-3.0,,796,Consent_001,"
        <div title=""""logo""""><p style=""""margin-bottom: 0.2in; line-height: 100%""""><img src=""""controllers/media/logo.png"""" name=""""UAI"""" align=""""bottom"""" width=""""158"""" height=""""59"""" border=""""0""""/></p></div>
        <div>
        <h3 class=""""western"""" align=""""center"""">Informed Consent</h3><br/>
        <b>Name of the project: </b>Experiment errors <br/>
        <b>Principal Researcher: </b>Gorka Navarrete, Centro de Neurociencia Social y Cognitiva (CSCN).<br/>
        <b>Goal: </b>To create a live example of how a jsPsychR survey and it's data preparation works.<br/><br/>
        <b>Procedure: </b>You will have to answer 2 or 3 questions about errors found in research protocols.<br/><br/>
        <b>Associated risks: </b>There are no risks associated with this study. Although by responding, you reveal private information, it will be used only for research purposes, protecting your privacy and confidentiality, since only grouped data will be analyzed and not individual data.<br/><br/>
         <b>Benefits: </b>There may be no immediate benefits to you as a result of participating in this study. However, the results will improve our understanding of what types of errors are more common in our research.<br/><br/>
        <b>Confidentiality: </b>By selecting """"I agree to participate"""", you give permission to the research team to analyze your data. However, all information produced in this research is confidential, and therefore will only be used for research purposes. We will not keep your name in our database, nor will there be any way to later associate the information you give us with your identity. The information we will use, both in reports and in articles derived from the study, will consist only of grouped data (for example, averages). Confidential information will be stored with a password and privately only on the computer of the responsible researcher. If you want more information or know the results of this study, you can contact the person responsible for the project (Gorka Navarrete, email: <a href=""""mailto:gorkang@gmail.com"""">gorkang@gmail.com</a>)<br/><br/>
        <b>Voluntariness: </b>Participation in this study is voluntary. You can withdraw whenever you wish without any negative consequences for this. Your withdrawal does not mean that you cannot participate in another of our studies in the future. If you have a claim or feel that your rights were violated by any of the people carrying out this study, you can contact the University Ethics Committee Universidad Adolfo Ibáñez, whose president is Paola Cañon in the phone number (562) 2331-1277, o the email: <a href=""""mailto:paola.canon.g@uai.cl"""">paola.canon.g@uai.cl</a>. <br/><br/>
        <em>When selecting “I agree to participate” you declare that you are willing to voluntarily participate in this research: </em>
        <BR><BR>
        </div>",0,NA,NA,38_Consent_original_2023-10-30T172301_negx101x8pyt3m1pey56.csv
38_Consent_original_2023-10-30T172715_nfkdpeke9upnr441gjol.csv,38,Consent,original,2023-10-30T172715,nfkdpeke9upnr441gjol,true,Consent,fullscreen,1,1052,0.0-1.0-0.0,,,,,,NA,NA,38_Consent_original_2023-10-30T172715_nfkdpeke9upnr441gjol.csv
38_Consent_original_2023-10-30T172715_nfkdpeke9upnr441gjol.csv,38,Consent,original,2023-10-30T172715,nfkdpeke9upnr441gjol,,Consent,instructions,2,4959,0.0-2.0,"[{""""page_index"""":0,""""viewing_time"""":3898}]",3899,Consent_000,,,NA,NA,38_Consent_original_2023-10-30T172715_nfkdpeke9upnr441gjol.csv
38_Consent_original_2023-10-30T172715_nfkdpeke9upnr441gjol.csv,38,Consent,original,2023-10-30T172715,nfkdpeke9upnr441gjol,,Consent,html-button-response,3,7075,0.0-3.0,,2104.2000000178814,Consent_001,"
        <div title=""""logo""""><p style=""""margin-bottom: 0.2in; line-height: 100%""""><img src=""""controllers/media/logo.png"""" name=""""UAI"""" align=""""bottom"""" width=""""158"""" height=""""59"""" border=""""0""""/></p></div>
        <div>
        <h3 class=""""western"""" align=""""center"""">Informed Consent</h3><br/>
        <b>Name of the project: </b>Experiment errors <br/>
        <b>Principal Researcher: </b>Gorka Navarrete, Centro de Neurociencia Social y Cognitiva (CSCN).<br/>
        <b>Goal: </b>To create a live example of how a jsPsychR survey and it's data preparation works.<br/><br/>
        <b>Procedure: </b>You will have to answer 2 or 3 questions about errors found in research protocols.<br/><br/>
        <b>Associated risks: </b>There are no risks associated with this study. Although by responding, you reveal private information, it will be used only for research purposes, protecting your privacy and confidentiality, since only grouped data will be analyzed and not individual data.<br/><br/>
         <b>Benefits: </b>There may be no immediate benefits to you as a result of participating in this study. However, the results will improve our understanding of what types of errors are more common in our research.<br/><br/>
        <b>Confidentiality: </b>By selecting """"I agree to participate"""", you give permission to the research team to analyze your data. However, all information produced in this research is confidential, and therefore will only be used for research purposes. We will not keep your name in our database, nor will there be any way to later associate the information you give us with your identity. The information we will use, both in reports and in articles derived from the study, will consist only of grouped data (for example, averages). Confidential information will be stored with a password and privately only on the computer of the responsible researcher. If you want more information or know the results of this study, you can contact the person responsible for the project (Gorka Navarrete, email: <a href=""""mailto:gorkang@gmail.com"""">gorkang@gmail.com</a>)<br/><br/>
        <b>Voluntariness: </b>Participation in this study is voluntary. You can withdraw whenever you wish without any negative consequences for this. Your withdrawal does not mean that you cannot participate in another of our studies in the future. If you have a claim or feel that your rights were violated by any of the people carrying out this study, you can contact the University Ethics Committee Universidad Adolfo Ibáñez, whose president is Paola Cañon in the phone number (562) 2331-1277, o the email: <a href=""""mailto:paola.canon.g@uai.cl"""">paola.canon.g@uai.cl</a>. <br/><br/>
        <em>When selecting “I agree to participate” you declare that you are willing to voluntarily participate in this research: </em>
        <BR><BR>
        </div>",0,NA,NA,38_Consent_original_2023-10-30T172715_nfkdpeke9upnr441gjol.csv
38_Consent_original_2023-10-30T173350_lp4xgkzfl08a9g4ln6cy.csv,38,Consent,original,2023-10-30T173350,lp4xgkzfl08a9g4ln6cy,true,Consent,fullscreen,1,2747,0.0-1.0-0.0,,,,,,NA,NA,38_Consent_original_2023-10-30T173350_lp4xgkzfl08a9g4ln6cy.csv
38_Consent_original_2023-10-30T173350_lp4xgkzfl08a9g4ln6cy.csv,38,Consent,original,2023-10-30T173350,lp4xgkzfl08a9g4ln6cy,,Consent,instructions,2,3953,0.0-2.0,"[{""""page_index"""":0,""""viewing_time"""":1198}]",1199,Consent_000,,,NA,NA,38_Consent_original_2023-10-30T173350_lp4xgkzfl08a9g4ln6cy.csv
38_Consent_original_2023-10-30T173350_lp4xgkzfl08a9g4ln6cy.csv,38,Consent,original,2023-10-30T173350,lp4xgkzfl08a9g4ln6cy,,Consent,html-button-response,3,6693,0.0-3.0,,2729.5999999940395,Consent_001,"
        <div title=""""logo""""><p style=""""margin-bottom: 0.2in; line-height: 100%""""><img src=""""controllers/media/logo.png"""" name=""""UAI"""" align=""""bottom"""" width=""""158"""" height=""""59"""" border=""""0""""/></p></div>
        <div>
        <h3 class=""""western"""" align=""""center"""">Informed Consent</h3><br/>
        <b>Name of the project: </b>Experiment errors <br/>
        <b>Principal Researcher: </b>Gorka Navarrete, Centro de Neurociencia Social y Cognitiva (CSCN).<br/>
        <b>Goal: </b>To create a live example of how a jsPsychR survey and it's data preparation works.<br/><br/>
        <b>Procedure: </b>You will have to answer 2 or 3 questions about errors found in research protocols.<br/><br/>
        <b>Associated risks: </b>There are no risks associated with this study. Although by responding, you reveal private information, it will be used only for research purposes, protecting your privacy and confidentiality, since only grouped data will be analyzed and not individual data.<br/><br/>
         <b>Benefits: </b>There may be no immediate benefits to you as a result of participating in this study. However, the results will improve our understanding of what types of errors are more common in our research.<br/><br/>
        <b>Confidentiality: </b>By selecting """"I agree to participate"""", you give permission to the research team to analyze your data. However, all information produced in this research is confidential, and therefore will only be used for research purposes. We will not keep your name in our database, nor will there be any way to later associate the information you give us with your identity. The information we will use, both in reports and in articles derived from the study, will consist only of grouped data (for example, averages). Confidential information will be stored with a password and privately only on the computer of the responsible researcher. If you want more information or know the results of this study, you can contact the person responsible for the project (Gorka Navarrete, email: <a href=""""mailto:gorkang@gmail.com"""">gorkang@gmail.com</a>)<br/><br/>
        <b>Voluntariness: </b>Participation in this study is voluntary. You can withdraw whenever you wish without any negative consequences for this. Your withdrawal does not mean that you cannot participate in another of our studies in the future. If you have a claim or feel that your rights were violated by any of the people carrying out this study, you can contact the University Ethics Committee Universidad Adolfo Ibáñez, whose president is Paola Cañon in the phone number (562) 2331-1277, o the email: <a href=""""mailto:paola.canon.g@uai.cl"""">paola.canon.g@uai.cl</a>. <br/><br/>
        <em>When selecting “I agree to participate” you declare that you are willing to voluntarily participate in this research: </em>
        <BR><BR>
        </div>",0,NA,NA,38_Consent_original_2023-10-30T173350_lp4xgkzfl08a9g4ln6cy.csv
38_Consent_original_2023-10-30T173444_hlp9o34g0xpdt7n2vc2z.csv,38,Consent,original,2023-10-30T173444,hlp9o34g0xpdt7n2vc2z,true,Consent,fullscreen,1,7621,0.0-1.0-0.0,,,,,,NA,NA,38_Consent_original_2023-10-30T173444_hlp9o34g0xpdt7n2vc2z.csv
38_Consent_original_2023-10-30T173444_hlp9o34g0xpdt7n2vc2z.csv,38,Consent,original,2023-10-30T173444,hlp9o34g0xpdt7n2vc2z,,Consent,instructions,2,9378,0.0-2.0,"[{""""page_index"""":0,""""viewing_time"""":1750}]",1751,Consent_000,,,NA,NA,38_Consent_original_2023-10-30T173444_hlp9o34g0xpdt7n2vc2z.csv
38_Consent_original_2023-10-30T173444_hlp9o34g0xpdt7n2vc2z.csv,38,Consent,original,2023-10-30T173444,hlp9o34g0xpdt7n2vc2z,,Consent,html-button-response,3,11400,0.0-3.0,,2012,Consent_001,"
        <div title=""""logo""""><p style=""""margin-bottom: 0.2in; line-height: 100%""""><img src=""""controllers/media/logo.png"""" name=""""UAI"""" align=""""bottom"""" width=""""158"""" height=""""59"""" border=""""0""""/></p></div>
        <div>
        <h3 class=""""western"""" align=""""center"""">Informed Consent</h3><br/>
        <b>Name of the project: </b>Experiment errors <br/>
        <b>Principal Researcher: </b>Gorka Navarrete, Centro de Neurociencia Social y Cognitiva (CSCN).<br/>
        <b>Goal: </b>To create a live example of how a jsPsychR survey and it's data preparation works.<br/><br/>
        <b>Procedure: </b>You will have to answer 2 or 3 questions about errors found in research protocols.<br/><br/>
        <b>Associated risks: </b>There are no risks associated with this study. Although by responding, you reveal private information, it will be used only for research purposes, protecting your privacy and confidentiality, since only grouped data will be analyzed and not individual data.<br/><br/>
         <b>Benefits: </b>There may be no immediate benefits to you as a result of participating in this study. However, the results will improve our understanding of what types of errors are more common in our research.<br/><br/>
        <b>Confidentiality: </b>By selecting """"I agree to participate"""", you give permission to the research team to analyze your data. However, all information produced in this research is confidential, and therefore will only be used for research purposes. We will not keep your name in our database, nor will there be any way to later associate the information you give us with your identity. The information we will use, both in reports and in articles derived from the study, will consist only of grouped data (for example, averages). Confidential information will be stored with a password and privately only on the computer of the responsible researcher. If you want more information or know the results of this study, you can contact the person responsible for the project (Gorka Navarrete, email: <a href=""""mailto:gorkang@gmail.com"""">gorkang@gmail.com</a>)<br/><br/>
        <b>Voluntariness: </b>Participation in this study is voluntary. You can withdraw whenever you wish without any negative consequences for this. Your withdrawal does not mean that you cannot participate in another of our studies in the future. If you have a claim or feel that your rights were violated by any of the people carrying out this study, you can contact the University Ethics Committee Universidad Adolfo Ibáñez, whose president is Paola Cañon in the phone number (562) 2331-1277, o the email: <a href=""""mailto:paola.canon.g@uai.cl"""">paola.canon.g@uai.cl</a>. <br/><br/>
        <em>When selecting “I agree to participate” you declare that you are willing to voluntarily participate in this research: </em>
        <BR><BR>
        </div>",0,NA,NA,38_Consent_original_2023-10-30T173444_hlp9o34g0xpdt7n2vc2z.csv
38_Consent_original_2023-10-30T173510_esphjqrvfssms15z58lf.csv,38,Consent,original,2023-10-30T173510,esphjqrvfssms15z58lf,true,Consent,fullscreen,1,3637,0.0-1.0-0.0,,,,,,NA,NA,38_Consent_original_2023-10-30T173510_esphjqrvfssms15z58lf.csv
38_Consent_original_2023-10-30T173510_esphjqrvfssms15z58lf.csv,38,Consent,original,2023-10-30T173510,esphjqrvfssms15z58lf,,Consent,instructions,2,6987,0.0-2.0,"[{""""page_index"""":0,""""viewing_time"""":3345}]",3346,Consent_000,,,NA,NA,38_Consent_original_2023-10-30T173510_esphjqrvfssms15z58lf.csv
38_Consent_original_2023-10-30T173510_esphjqrvfssms15z58lf.csv,38,Consent,original,2023-10-30T173510,esphjqrvfssms15z58lf,,Consent,html-button-response,3,8411,0.0-3.0,,1416.0999999940395,Consent_001,"
        <div title=""""logo""""><p style=""""margin-bottom: 0.2in; line-height: 100%""""><img src=""""controllers/media/logo.png"""" name=""""UAI"""" align=""""bottom"""" width=""""158"""" height=""""59"""" border=""""0""""/></p></div>
        <div>
        <h3 class=""""western"""" align=""""center"""">Informed Consent</h3><br/>
        <b>Name of the project: </b>Experiment errors <br/>
        <b>Principal Researcher: </b>Gorka Navarrete, Centro de Neurociencia Social y Cognitiva (CSCN).<br/>
        <b>Goal: </b>To create a live example of how a jsPsychR survey and it's data preparation works.<br/><br/>
        <b>Procedure: </b>You will have to answer 2 or 3 questions about errors found in research protocols.<br/><br/>
        <b>Associated risks: </b>There are no risks associated with this study. Although by responding, you reveal private information, it will be used only for research purposes, protecting your privacy and confidentiality, since only grouped data will be analyzed and not individual data.<br/><br/>
         <b>Benefits: </b>There may be no immediate benefits to you as a result of participating in this study. However, the results will improve our understanding of what types of errors are more common in our research.<br/><br/>
        <b>Confidentiality: </b>By selecting """"I agree to participate"""", you give permission to the research team to analyze your data. However, all information produced in this research is confidential, and therefore will only be used for research purposes. We will not keep your name in our database, nor will there be any way to later associate the information you give us with your identity. The information we will use, both in reports and in articles derived from the study, will consist only of grouped data (for example, averages). Confidential information will be stored with a password and privately only on the computer of the responsible researcher. If you want more information or know the results of this study, you can contact the person responsible for the project (Gorka Navarrete, email: <a href=""""mailto:gorkang@gmail.com"""">gorkang@gmail.com</a>)<br/><br/>
        <b>Voluntariness: </b>Participation in this study is voluntary. You can withdraw whenever you wish without any negative consequences for this. Your withdrawal does not mean that you cannot participate in another of our studies in the future. If you have a claim or feel that your rights were violated by any of the people carrying out this study, you can contact the University Ethics Committee Universidad Adolfo Ibáñez, whose president is Paola Cañon in the phone number (562) 2331-1277, o the email: <a href=""""mailto:paola.canon.g@uai.cl"""">paola.canon.g@uai.cl</a>. <br/><br/>
        <em>When selecting “I agree to participate” you declare that you are willing to voluntarily participate in this research: </em>
        <BR><BR>
        </div>",0,NA,NA,38_Consent_original_2023-10-30T173510_esphjqrvfssms15z58lf.csv
38_Consent_original_2023-10-30T173626_2pqked5vawp4soxrdwx9.csv,38,Consent,original,2023-10-30T173626,2pqked5vawp4soxrdwx9,true,Consent,fullscreen,1,1232,0.0-1.0-0.0,,,,,,NA,NA,38_Consent_original_2023-10-30T173626_2pqked5vawp4soxrdwx9.csv
38_Consent_original_2023-10-30T173626_2pqked5vawp4soxrdwx9.csv,38,Consent,original,2023-10-30T173626,2pqked5vawp4soxrdwx9,,Consent,instructions,2,2901,0.0-2.0,"[{""""page_index"""":0,""""viewing_time"""":1656}]",1657,Consent_000,,,NA,NA,38_Consent_original_2023-10-30T173626_2pqked5vawp4soxrdwx9.csv
38_Consent_original_2023-10-30T173626_2pqked5vawp4soxrdwx9.csv,38,Consent,original,2023-10-30T173626,2pqked5vawp4soxrdwx9,,Consent,html-button-response,3,4667,0.0-3.0,,1749,Consent_001,"
        <div title=""""logo""""><p style=""""margin-bottom: 0.2in; line-height: 100%""""><img src=""""controllers/media/logo.png"""" name=""""UAI"""" align=""""bottom"""" width=""""158"""" height=""""59"""" border=""""0""""/></p></div>
        <div>
        <h3 class=""""western"""" align=""""center"""">Informed Consent</h3><br/>
        <b>Name of the project: </b>Experiment errors <br/>
        <b>Principal Researcher: </b>Gorka Navarrete, Centro de Neurociencia Social y Cognitiva (CSCN).<br/>
        <b>Goal: </b>To create a live example of how a jsPsychR survey and it's data preparation works.<br/><br/>
        <b>Procedure: </b>You will have to answer 2 or 3 questions about errors found in research protocols.<br/><br/>
        <b>Associated risks: </b>There are no risks associated with this study. Although by responding, you reveal private information, it will be used only for research purposes, protecting your privacy and confidentiality, since only grouped data will be analyzed and not individual data.<br/><br/>
         <b>Benefits: </b>There may be no immediate benefits to you as a result of participating in this study. However, the results will improve our understanding of what types of errors are more common in our research.<br/><br/>
        <b>Confidentiality: </b>By selecting """"I agree to participate"""", you give permission to the research team to analyze your data. However, all information produced in this research is confidential, and therefore will only be used for research purposes. We will not keep your name in our database, nor will there be any way to later associate the information you give us with your identity. The information we will use, both in reports and in articles derived from the study, will consist only of grouped data (for example, averages). Confidential information will be stored with a password and privately only on the computer of the responsible researcher. If you want more information or know the results of this study, you can contact the person responsible for the project (Gorka Navarrete, email: <a href=""""mailto:gorkang@gmail.com"""">gorkang@gmail.com</a>)<br/><br/>
        <b>Voluntariness: </b>Participation in this study is voluntary. You can withdraw whenever you wish without any negative consequences for this. Your withdrawal does not mean that you cannot participate in another of our studies in the future. If you have a claim or feel that your rights were violated by any of the people carrying out this study, you can contact the University Ethics Committee Universidad Adolfo Ibáñez, whose president is Paola Cañon in the phone number (562) 2331-1277, o the email: <a href=""""mailto:paola.canon.g@uai.cl"""">paola.canon.g@uai.cl</a>. <br/><br/>
        <em>When selecting “I agree to participate” you declare that you are willing to voluntarily participate in this research: </em>
        <BR><BR>
        </div>",0,NA,NA,38_Consent_original_2023-10-30T173626_2pqked5vawp4soxrdwx9.csv
38_Consent_original_2023-10-30T173909_a3mxta3zg3ddh67swze1.csv,38,Consent,original,2023-10-30T173909,a3mxta3zg3ddh67swze1,true,Consent,fullscreen,1,5745,0.0-1.0-0.0,,,,,,NA,NA,38_Consent_original_2023-10-30T173909_a3mxta3zg3ddh67swze1.csv
38_Consent_original_2023-10-30T173909_a3mxta3zg3ddh67swze1.csv,38,Consent,original,2023-10-30T173909,a3mxta3zg3ddh67swze1,,Consent,instructions,2,7738,0.0-2.0,"[{""""page_index"""":0,""""viewing_time"""":1982}]",1982,Consent_000,,,NA,NA,38_Consent_original_2023-10-30T173909_a3mxta3zg3ddh67swze1.csv
38_Consent_original_2023-10-30T173909_a3mxta3zg3ddh67swze1.csv,38,Consent,original,2023-10-30T173909,a3mxta3zg3ddh67swze1,,Consent,html-button-response,3,133710,0.0-3.0,,125959,Consent_001,"
        <div title=""""logo""""><p style=""""margin-bottom: 0.2in; line-height: 100%""""><img src=""""controllers/media/logo.png"""" name=""""UAI"""" align=""""bottom"""" width=""""158"""" height=""""59"""" border=""""0""""/></p></div>
        <div>
        <h3 class=""""western"""" align=""""center"""">Informed Consent</h3><br/>
        <b>Name of the project: </b>Experiment errors <br/>
        <b>Principal Researcher: </b>Gorka Navarrete, Centro de Neurociencia Social y Cognitiva (CSCN).<br/>
        <b>Goal: </b>To create a live example of how a jsPsychR survey and it's data preparation works.<br/><br/>
        <b>Procedure: </b>You will have to answer 2 or 3 questions about errors found in research protocols.<br/><br/>
        <b>Associated risks: </b>There are no risks associated with this study. Although by responding, you reveal private information, it will be used only for research purposes, protecting your privacy and confidentiality, since only grouped data will be analyzed and not individual data.<br/><br/>
         <b>Benefits: </b>There may be no immediate benefits to you as a result of participating in this study. However, the results will improve our understanding of what types of errors are more common in our research.<br/><br/>
        <b>Confidentiality: </b>By selecting """"I agree to participate"""", you give permission to the research team to analyze your data. However, all information produced in this research is confidential, and therefore will only be used for research purposes. We will not keep your name in our database, nor will there be any way to later associate the information you give us with your identity. The information we will use, both in reports and in articles derived from the study, will consist only of grouped data (for example, averages). Confidential information will be stored with a password and privately only on the computer of the responsible researcher. If you want more information or know the results of this study, you can contact the person responsible for the project (Gorka Navarrete, email: <a href=""""mailto:gorkang@gmail.com"""">gorkang@gmail.com</a>)<br/><br/>
        <b>Voluntariness: </b>Participation in this study is voluntary. You can withdraw whenever you wish without any negative consequences for this. Your withdrawal does not mean that you cannot participate in another of our studies in the future. If you have a claim or feel that your rights were violated by any of the people carrying out this study, you can contact the University Ethics Committee Universidad Adolfo Ibáñez, whose president is Paola Cañon in the phone number (562) 2331-1277, o the email: <a href=""""mailto:paola.canon.g@uai.cl"""">paola.canon.g@uai.cl</a>. <br/><br/>
        <em>When selecting “I agree to participate” you declare that you are willing to voluntarily participate in this research: </em>
        <BR><BR>
        </div>",0,NA,NA,38_Consent_original_2023-10-30T173909_a3mxta3zg3ddh67swze1.csv
38_Consent_original_2023-10-30T174003_9dgvdb8jnmkr1vddfgvf.csv,38,Consent,original,2023-10-30T174003,9dgvdb8jnmkr1vddfgvf,true,Consent,fullscreen,1,1186,0.0-1.0-0.0,,,,,,NA,NA,38_Consent_original_2023-10-30T174003_9dgvdb8jnmkr1vddfgvf.csv
38_Consent_original_2023-10-30T174003_9dgvdb8jnmkr1vddfgvf.csv,38,Consent,original,2023-10-30T174003,9dgvdb8jnmkr1vddfgvf,,Consent,instructions,2,4249,0.0-2.0,"[{""""page_index"""":0,""""viewing_time"""":3054}]",3055,Consent_000,,,NA,NA,38_Consent_original_2023-10-30T174003_9dgvdb8jnmkr1vddfgvf.csv
38_Consent_original_2023-10-30T174003_9dgvdb8jnmkr1vddfgvf.csv,38,Consent,original,2023-10-30T174003,9dgvdb8jnmkr1vddfgvf,,Consent,html-button-response,3,5737,0.0-3.0,,1479.6000000238419,Consent_001,"
        <div title=""""logo""""><p style=""""margin-bottom: 0.2in; line-height: 100%""""><img src=""""controllers/media/logo.png"""" name=""""UAI"""" align=""""bottom"""" width=""""158"""" height=""""59"""" border=""""0""""/></p></div>
        <div>
        <h3 class=""""western"""" align=""""center"""">Informed Consent</h3><br/>
        <b>Name of the project: </b>Experiment errors <br/>
        <b>Principal Researcher: </b>Gorka Navarrete, Centro de Neurociencia Social y Cognitiva (CSCN).<br/>
        <b>Goal: </b>To create a live example of how a jsPsychR survey and it's data preparation works.<br/><br/>
        <b>Procedure: </b>You will have to answer 2 or 3 questions about errors found in research protocols.<br/><br/>
        <b>Associated risks: </b>There are no risks associated with this study. Although by responding, you reveal private information, it will be used only for research purposes, protecting your privacy and confidentiality, since only grouped data will be analyzed and not individual data.<br/><br/>
         <b>Benefits: </b>There may be no immediate benefits to you as a result of participating in this study. However, the results will improve our understanding of what types of errors are more common in our research.<br/><br/>
        <b>Confidentiality: </b>By selecting """"I agree to participate"""", you give permission to the research team to analyze your data. However, all information produced in this research is confidential, and therefore will only be used for research purposes. We will not keep your name in our database, nor will there be any way to later associate the information you give us with your identity. The information we will use, both in reports and in articles derived from the study, will consist only of grouped data (for example, averages). Confidential information will be stored with a password and privately only on the computer of the responsible researcher. If you want more information or know the results of this study, you can contact the person responsible for the project (Gorka Navarrete, email: <a href=""""mailto:gorkang@gmail.com"""">gorkang@gmail.com</a>)<br/><br/>
        <b>Voluntariness: </b>Participation in this study is voluntary. You can withdraw whenever you wish without any negative consequences for this. Your withdrawal does not mean that you cannot participate in another of our studies in the future. If you have a claim or feel that your rights were violated by any of the people carrying out this study, you can contact the University Ethics Committee Universidad Adolfo Ibáñez, whose president is Paola Cañon in the phone number (562) 2331-1277, o the email: <a href=""""mailto:paola.canon.g@uai.cl"""">paola.canon.g@uai.cl</a>. <br/><br/>
        <em>When selecting “I agree to participate” you declare that you are willing to voluntarily participate in this research: </em>
        <BR><BR>
        </div>",0,NA,NA,38_Consent_original_2023-10-30T174003_9dgvdb8jnmkr1vddfgvf.csv
38_Consent_original_2023-10-30T174036_oh58scusso9f6rtph8bk.csv,38,Consent,original,2023-10-30T174036,oh58scusso9f6rtph8bk,true,Consent,fullscreen,1,2402,0.0-1.0-0.0,,,,,,NA,NA,38_Consent_original_2023-10-30T174036_oh58scusso9f6rtph8bk.csv
38_Consent_original_2023-10-30T174036_oh58scusso9f6rtph8bk.csv,38,Consent,original,2023-10-30T174036,oh58scusso9f6rtph8bk,,Consent,instructions,2,3302,0.0-2.0,"[{""""page_index"""":0,""""viewing_time"""":895}]",896,Consent_000,,,NA,NA,38_Consent_original_2023-10-30T174036_oh58scusso9f6rtph8bk.csv
38_Consent_original_2023-10-30T174036_oh58scusso9f6rtph8bk.csv,38,Consent,original,2023-10-30T174036,oh58scusso9f6rtph8bk,,Consent,html-button-response,3,6582,0.0-3.0,,3272.199999988079,Consent_001,"
        <div title=""""logo""""><p style=""""margin-bottom: 0.2in; line-height: 100%""""><img src=""""controllers/media/logo.png"""" name=""""UAI"""" align=""""bottom"""" width=""""158"""" height=""""59"""" border=""""0""""/></p></div>
        <div>
        <h3 class=""""western"""" align=""""center"""">Informed Consent</h3><br/>
        <b>Name of the project: </b>Experiment errors <br/>
        <b>Principal Researcher: </b>Gorka Navarrete, Centro de Neurociencia Social y Cognitiva (CSCN).<br/>
        <b>Goal: </b>To create a live example of how a jsPsychR survey and it's data preparation works.<br/><br/>
        <b>Procedure: </b>You will have to answer 2 or 3 questions about errors found in research protocols.<br/><br/>
        <b>Associated risks: </b>There are no risks associated with this study. Although by responding, you reveal private information, it will be used only for research purposes, protecting your privacy and confidentiality, since only grouped data will be analyzed and not individual data.<br/><br/>
         <b>Benefits: </b>There may be no immediate benefits to you as a result of participating in this study. However, the results will improve our understanding of what types of errors are more common in our research.<br/><br/>
        <b>Confidentiality: </b>By selecting """"I agree to participate"""", you give permission to the research team to analyze your data. However, all information produced in this research is confidential, and therefore will only be used for research purposes. We will not keep your name in our database, nor will there be any way to later associate the information you give us with your identity. The information we will use, both in reports and in articles derived from the study, will consist only of grouped data (for example, averages). Confidential information will be stored with a password and privately only on the computer of the responsible researcher. If you want more information or know the results of this study, you can contact the person responsible for the project (Gorka Navarrete, email: <a href=""""mailto:gorkang@gmail.com"""">gorkang@gmail.com</a>)<br/><br/>
        <b>Voluntariness: </b>Participation in this study is voluntary. You can withdraw whenever you wish without any negative consequences for this. Your withdrawal does not mean that you cannot participate in another of our studies in the future. If you have a claim or feel that your rights were violated by any of the people carrying out this study, you can contact the University Ethics Committee Universidad Adolfo Ibáñez, whose president is Paola Cañon in the phone number (562) 2331-1277, o the email: <a href=""""mailto:paola.canon.g@uai.cl"""">paola.canon.g@uai.cl</a>. <br/><br/>
        <em>When selecting “I agree to participate” you declare that you are willing to voluntarily participate in this research: </em>
        <BR><BR>
        </div>",0,NA,NA,38_Consent_original_2023-10-30T174036_oh58scusso9f6rtph8bk.csv
38_Consent_original_2023-10-30T174125_hjfzle0c95r3owqk9wkb.csv,38,Consent,original,2023-10-30T174125,hjfzle0c95r3owqk9wkb,true,Consent,fullscreen,1,2069,0.0-1.0-0.0,,,,,,NA,NA,38_Consent_original_2023-10-30T174125_hjfzle0c95r3owqk9wkb.csv
38_Consent_original_2023-10-30T174125_hjfzle0c95r3owqk9wkb.csv,38,Consent,original,2023-10-30T174125,hjfzle0c95r3owqk9wkb,,Consent,instructions,2,4659,0.0-2.0,"[{""""page_index"""":0,""""viewing_time"""":2585}]",2586,Consent_000,,,NA,NA,38_Consent_original_2023-10-30T174125_hjfzle0c95r3owqk9wkb.csv
38_Consent_original_2023-10-30T174125_hjfzle0c95r3owqk9wkb.csv,38,Consent,original,2023-10-30T174125,hjfzle0c95r3owqk9wkb,,Consent,html-button-response,3,6345,0.0-3.0,,1677.5,Consent_001,"
        <div title=""""logo""""><p style=""""margin-bottom: 0.2in; line-height: 100%""""><img src=""""controllers/media/logo.png"""" name=""""UAI"""" align=""""bottom"""" width=""""158"""" height=""""59"""" border=""""0""""/></p></div>
        <div>
        <h3 class=""""western"""" align=""""center"""">Informed Consent</h3><br/>
        <b>Name of the project: </b>Experiment errors <br/>
        <b>Principal Researcher: </b>Gorka Navarrete, Centro de Neurociencia Social y Cognitiva (CSCN).<br/>
        <b>Goal: </b>To create a live example of how a jsPsychR survey and it's data preparation works.<br/><br/>
        <b>Procedure: </b>You will have to answer 2 or 3 questions about errors found in research protocols.<br/><br/>
        <b>Associated risks: </b>There are no risks associated with this study. Although by responding, you reveal private information, it will be used only for research purposes, protecting your privacy and confidentiality, since only grouped data will be analyzed and not individual data.<br/><br/>
         <b>Benefits: </b>There may be no immediate benefits to you as a result of participating in this study. However, the results will improve our understanding of what types of errors are more common in our research.<br/><br/>
        <b>Confidentiality: </b>By selecting """"I agree to participate"""", you give permission to the research team to analyze your data. However, all information produced in this research is confidential, and therefore will only be used for research purposes. We will not keep your name in our database, nor will there be any way to later associate the information you give us with your identity. The information we will use, both in reports and in articles derived from the study, will consist only of grouped data (for example, averages). Confidential information will be stored with a password and privately only on the computer of the responsible researcher. If you want more information or know the results of this study, you can contact the person responsible for the project (Gorka Navarrete, email: <a href=""""mailto:gorkang@gmail.com"""">gorkang@gmail.com</a>)<br/><br/>
        <b>Voluntariness: </b>Participation in this study is voluntary. You can withdraw whenever you wish without any negative consequences for this. Your withdrawal does not mean that you cannot participate in another of our studies in the future. If you have a claim or feel that your rights were violated by any of the people carrying out this study, you can contact the University Ethics Committee Universidad Adolfo Ibáñez, whose president is Paola Cañon in the phone number (562) 2331-1277, o the email: <a href=""""mailto:paola.canon.g@uai.cl"""">paola.canon.g@uai.cl</a>. <br/><br/>
        <em>When selecting “I agree to participate” you declare that you are willing to voluntarily participate in this research: </em>
        <BR><BR>
        </div>",0,NA,NA,38_Consent_original_2023-10-30T174125_hjfzle0c95r3owqk9wkb.csv
38_Consent_original_2023-10-30T174234_071jagnt41ukona9m914.csv,38,Consent,original,2023-10-30T174234,071jagnt41ukona9m914,true,Consent,fullscreen,1,982,0.0-1.0-0.0,,,,,,NA,NA,38_Consent_original_2023-10-30T174234_071jagnt41ukona9m914.csv
38_Consent_original_2023-10-30T174234_071jagnt41ukona9m914.csv,38,Consent,original,2023-10-30T174234,071jagnt41ukona9m914,,Consent,instructions,2,2515,0.0-2.0,"[{""""page_index"""":0,""""viewing_time"""":1526}]",1528,Consent_000,,,NA,NA,38_Consent_original_2023-10-30T174234_071jagnt41ukona9m914.csv
38_Consent_original_2023-10-30T174234_071jagnt41ukona9m914.csv,38,Consent,original,2023-10-30T174234,071jagnt41ukona9m914,,Consent,html-button-response,3,3932,0.0-3.0,,1409.699999988079,Consent_001,"
        <div title=""""logo""""><p style=""""margin-bottom: 0.2in; line-height: 100%""""><img src=""""controllers/media/logo.png"""" name=""""UAI"""" align=""""bottom"""" width=""""158"""" height=""""59"""" border=""""0""""/></p></div>
        <div>
        <h3 class=""""western"""" align=""""center"""">Informed Consent</h3><br/>
        <b>Name of the project: </b>Experiment errors <br/>
        <b>Principal Researcher: </b>Gorka Navarrete, Centro de Neurociencia Social y Cognitiva (CSCN).<br/>
        <b>Goal: </b>To create a live example of how a jsPsychR survey and it's data preparation works.<br/><br/>
        <b>Procedure: </b>You will have to answer 2 or 3 questions about errors found in research protocols.<br/><br/>
        <b>Associated risks: </b>There are no risks associated with this study. Although by responding, you reveal private information, it will be used only for research purposes, protecting your privacy and confidentiality, since only grouped data will be analyzed and not individual data.<br/><br/>
         <b>Benefits: </b>There may be no immediate benefits to you as a result of participating in this study. However, the results will improve our understanding of what types of errors are more common in our research.<br/><br/>
        <b>Confidentiality: </b>By selecting """"I agree to participate"""", you give permission to the research team to analyze your data. However, all information produced in this research is confidential, and therefore will only be used for research purposes. We will not keep your name in our database, nor will there be any way to later associate the information you give us with your identity. The information we will use, both in reports and in articles derived from the study, will consist only of grouped data (for example, averages). Confidential information will be stored with a password and privately only on the computer of the responsible researcher. If you want more information or know the results of this study, you can contact the person responsible for the project (Gorka Navarrete, email: <a href=""""mailto:gorkang@gmail.com"""">gorkang@gmail.com</a>)<br/><br/>
        <b>Voluntariness: </b>Participation in this study is voluntary. You can withdraw whenever you wish without any negative consequences for this. Your withdrawal does not mean that you cannot participate in another of our studies in the future. If you have a claim or feel that your rights were violated by any of the people carrying out this study, you can contact the University Ethics Committee Universidad Adolfo Ibáñez, whose president is Paola Cañon in the phone number (562) 2331-1277, o the email: <a href=""""mailto:paola.canon.g@uai.cl"""">paola.canon.g@uai.cl</a>. <br/><br/>
        <em>When selecting “I agree to participate” you declare that you are willing to voluntarily participate in this research: </em>
        <BR><BR>
        </div>",0,NA,NA,38_Consent_original_2023-10-30T174234_071jagnt41ukona9m914.csv
38_Consent_original_2023-10-30T174255_s2xakns96m77roevlsao.csv,38,Consent,original,2023-10-30T174255,s2xakns96m77roevlsao,true,Consent,fullscreen,1,972,0.0-1.0-0.0,,,,,,NA,NA,38_Consent_original_2023-10-30T174255_s2xakns96m77roevlsao.csv
38_Consent_original_2023-10-30T174255_s2xakns96m77roevlsao.csv,38,Consent,original,2023-10-30T174255,s2xakns96m77roevlsao,,Consent,instructions,2,3193,0.0-2.0,"[{""""page_index"""":0,""""viewing_time"""":2218}]",2218,Consent_000,,,NA,NA,38_Consent_original_2023-10-30T174255_s2xakns96m77roevlsao.csv
38_Consent_original_2023-10-30T174255_s2xakns96m77roevlsao.csv,38,Consent,original,2023-10-30T174255,s2xakns96m77roevlsao,,Consent,html-button-response,3,6796,0.0-3.0,,3595.9000000059605,Consent_001,"
        <div title=""""logo""""><p style=""""margin-bottom: 0.2in; line-height: 100%""""><img src=""""controllers/media/logo.png"""" name=""""UAI"""" align=""""bottom"""" width=""""158"""" height=""""59"""" border=""""0""""/></p></div>
        <div>
        <h3 class=""""western"""" align=""""center"""">Informed Consent</h3><br/>
        <b>Name of the project: </b>Experiment errors <br/>
        <b>Principal Researcher: </b>Gorka Navarrete, Centro de Neurociencia Social y Cognitiva (CSCN).<br/>
        <b>Goal: </b>To create a live example of how a jsPsychR survey and it's data preparation works.<br/><br/>
        <b>Procedure: </b>You will have to answer 2 or 3 questions about errors found in research protocols.<br/><br/>
        <b>Associated risks: </b>There are no risks associated with this study. Although by responding, you reveal private information, it will be used only for research purposes, protecting your privacy and confidentiality, since only grouped data will be analyzed and not individual data.<br/><br/>
         <b>Benefits: </b>There may be no immediate benefits to you as a result of participating in this study. However, the results will improve our understanding of what types of errors are more common in our research.<br/><br/>
        <b>Confidentiality: </b>By selecting """"I agree to participate"""", you give permission to the research team to analyze your data. However, all information produced in this research is confidential, and therefore will only be used for research purposes. We will not keep your name in our database, nor will there be any way to later associate the information you give us with your identity. The information we will use, both in reports and in articles derived from the study, will consist only of grouped data (for example, averages). Confidential information will be stored with a password and privately only on the computer of the responsible researcher. If you want more information or know the results of this study, you can contact the person responsible for the project (Gorka Navarrete, email: <a href=""""mailto:gorkang@gmail.com"""">gorkang@gmail.com</a>)<br/><br/>
        <b>Voluntariness: </b>Participation in this study is voluntary. You can withdraw whenever you wish without any negative consequences for this. Your withdrawal does not mean that you cannot participate in another of our studies in the future. If you have a claim or feel that your rights were violated by any of the people carrying out this study, you can contact the University Ethics Committee Universidad Adolfo Ibáñez, whose president is Paola Cañon in the phone number (562) 2331-1277, o the email: <a href=""""mailto:paola.canon.g@uai.cl"""">paola.canon.g@uai.cl</a>. <br/><br/>
        <em>When selecting “I agree to participate” you declare that you are willing to voluntarily participate in this research: </em>
        <BR><BR>
        </div>",0,NA,NA,38_Consent_original_2023-10-30T174255_s2xakns96m77roevlsao.csv
38_Consent_original_2023-10-30T174514_dg1bytth91ycks23anmp.csv,38,Consent,original,2023-10-30T174514,dg1bytth91ycks23anmp,true,Consent,fullscreen,1,1087,0.0-1.0-0.0,,,,,,NA,NA,38_Consent_original_2023-10-30T174514_dg1bytth91ycks23anmp.csv
38_Consent_original_2023-10-30T174514_dg1bytth91ycks23anmp.csv,38,Consent,original,2023-10-30T174514,dg1bytth91ycks23anmp,,Consent,instructions,2,1883,0.0-2.0,"[{""""page_index"""":0,""""viewing_time"""":778}]",779,Consent_000,,,NA,NA,38_Consent_original_2023-10-30T174514_dg1bytth91ycks23anmp.csv
38_Consent_original_2023-10-30T174514_dg1bytth91ycks23anmp.csv,38,Consent,original,2023-10-30T174514,dg1bytth91ycks23anmp,,Consent,html-button-response,3,3429,0.0-3.0,,1532,Consent_001,"
        <div title=""""logo""""><p style=""""margin-bottom: 0.2in; line-height: 100%""""><img src=""""controllers/media/logo.png"""" name=""""UAI"""" align=""""bottom"""" width=""""158"""" height=""""59"""" border=""""0""""/></p></div>
        <div>
        <h3 class=""""western"""" align=""""center"""">Informed Consent</h3><br/>
        <b>Name of the project: </b>Experiment errors <br/>
        <b>Principal Researcher: </b>Gorka Navarrete, Centro de Neurociencia Social y Cognitiva (CSCN).<br/>
        <b>Goal: </b>To create a live example of how a jsPsychR survey and it's data preparation works.<br/><br/>
        <b>Procedure: </b>You will have to answer 2 or 3 questions about errors found in research protocols.<br/><br/>
        <b>Associated risks: </b>There are no risks associated with this study. Although by responding, you reveal private information, it will be used only for research purposes, protecting your privacy and confidentiality, since only grouped data will be analyzed and not individual data.<br/><br/>
         <b>Benefits: </b>There may be no immediate benefits to you as a result of participating in this study. However, the results will improve our understanding of what types of errors are more common in our research.<br/><br/>
        <b>Confidentiality: </b>By selecting """"I agree to participate"""", you give permission to the research team to analyze your data. However, all information produced in this research is confidential, and therefore will only be used for research purposes. We will not keep your name in our database, nor will there be any way to later associate the information you give us with your identity. The information we will use, both in reports and in articles derived from the study, will consist only of grouped data (for example, averages). Confidential information will be stored with a password and privately only on the computer of the responsible researcher. If you want more information or know the results of this study, you can contact the person responsible for the project (Gorka Navarrete, email: <a href=""""mailto:gorkang@gmail.com"""">gorkang@gmail.com</a>)<br/><br/>
        <b>Voluntariness: </b>Participation in this study is voluntary. You can withdraw whenever you wish without any negative consequences for this. Your withdrawal does not mean that you cannot participate in another of our studies in the future. If you have a claim or feel that your rights were violated by any of the people carrying out this study, you can contact the University Ethics Committee Universidad Adolfo Ibáñez, whose president is Paola Cañon in the phone number (562) 2331-1277, o the email: <a href=""""mailto:paola.canon.g@uai.cl"""">paola.canon.g@uai.cl</a>. <br/><br/>
        <em>When selecting “I agree to participate” you declare that you are willing to voluntarily participate in this research: </em>
        <BR><BR>
        </div>",0,NA,NA,38_Consent_original_2023-10-30T174514_dg1bytth91ycks23anmp.csv
38_Consent_original_2023-10-30T174605_6jbc0fa097qswtmh61gr.csv,38,Consent,original,2023-10-30T174605,6jbc0fa097qswtmh61gr,true,Consent,fullscreen,1,1160,0.0-1.0-0.0,,,,,,NA,NA,38_Consent_original_2023-10-30T174605_6jbc0fa097qswtmh61gr.csv
38_Consent_original_2023-10-30T174605_6jbc0fa097qswtmh61gr.csv,38,Consent,original,2023-10-30T174605,6jbc0fa097qswtmh61gr,,Consent,instructions,2,1893,0.0-2.0,"[{""""page_index"""":0,""""viewing_time"""":725}]",726,Consent_000,,,NA,NA,38_Consent_original_2023-10-30T174605_6jbc0fa097qswtmh61gr.csv
38_Consent_original_2023-10-30T174605_6jbc0fa097qswtmh61gr.csv,38,Consent,original,2023-10-30T174605,6jbc0fa097qswtmh61gr,,Consent,html-button-response,3,3525,0.0-3.0,,1620,Consent_001,"
        <div title=""""logo""""><p style=""""margin-bottom: 0.2in; line-height: 100%""""><img src=""""controllers/media/logo.png"""" name=""""UAI"""" align=""""bottom"""" width=""""158"""" height=""""59"""" border=""""0""""/></p></div>
        <div>
        <h3 class=""""western"""" align=""""center"""">Informed Consent</h3><br/>
        <b>Name of the project: </b>Experiment errors <br/>
        <b>Principal Researcher: </b>Gorka Navarrete, Centro de Neurociencia Social y Cognitiva (CSCN).<br/>
        <b>Goal: </b>To create a live example of how a jsPsychR survey and it's data preparation works.<br/><br/>
        <b>Procedure: </b>You will have to answer 2 or 3 questions about errors found in research protocols.<br/><br/>
        <b>Associated risks: </b>There are no risks associated with this study. Although by responding, you reveal private information, it will be used only for research purposes, protecting your privacy and confidentiality, since only grouped data will be analyzed and not individual data.<br/><br/>
         <b>Benefits: </b>There may be no immediate benefits to you as a result of participating in this study. However, the results will improve our understanding of what types of errors are more common in our research.<br/><br/>
        <b>Confidentiality: </b>By selecting """"I agree to participate"""", you give permission to the research team to analyze your data. However, all information produced in this research is confidential, and therefore will only be used for research purposes. We will not keep your name in our database, nor will there be any way to later associate the information you give us with your identity. The information we will use, both in reports and in articles derived from the study, will consist only of grouped data (for example, averages). Confidential information will be stored with a password and privately only on the computer of the responsible researcher. If you want more information or know the results of this study, you can contact the person responsible for the project (Gorka Navarrete, email: <a href=""""mailto:gorkang@gmail.com"""">gorkang@gmail.com</a>)<br/><br/>
        <b>Voluntariness: </b>Participation in this study is voluntary. You can withdraw whenever you wish without any negative consequences for this. Your withdrawal does not mean that you cannot participate in another of our studies in the future. If you have a claim or feel that your rights were violated by any of the people carrying out this study, you can contact the University Ethics Committee Universidad Adolfo Ibáñez, whose president is Paola Cañon in the phone number (562) 2331-1277, o the email: <a href=""""mailto:paola.canon.g@uai.cl"""">paola.canon.g@uai.cl</a>. <br/><br/>
        <em>When selecting “I agree to participate” you declare that you are willing to voluntarily participate in this research: </em>
        <BR><BR>
        </div>",0,NA,NA,38_Consent_original_2023-10-30T174605_6jbc0fa097qswtmh61gr.csv
38_Consent_original_2023-11-03T122324_hgprnh8su6c7qt4jhng0.csv,38,Consent,original,2023-11-03T122324,hgprnh8su6c7qt4jhng0,true,Consent,fullscreen,1,1086,0.0-1.0-0.0,,,,,,NA,NA,38_Consent_original_2023-11-03T122324_hgprnh8su6c7qt4jhng0.csv
38_Consent_original_2023-11-03T122324_hgprnh8su6c7qt4jhng0.csv,38,Consent,original,2023-11-03T122324,hgprnh8su6c7qt4jhng0,,Consent,instructions,2,1850,0.0-2.0,"[{""""page_index"""":0,""""viewing_time"""":758}]",759,Consent_000,,,NA,NA,38_Consent_original_2023-11-03T122324_hgprnh8su6c7qt4jhng0.csv
38_Consent_original_2023-11-03T122324_hgprnh8su6c7qt4jhng0.csv,38,Consent,original,2023-11-03T122324,hgprnh8su6c7qt4jhng0,,Consent,html-button-response,3,3875,0.0-3.0,,2012,Consent_001,"
        <div title=""""logo""""><p style=""""margin-bottom: 0.2in; line-height: 100%""""><img src=""""controllers/media/logo.png"""" name=""""UAI"""" align=""""bottom"""" width=""""158"""" height=""""59"""" border=""""0""""/></p></div>
        <div>
        <h3 class=""""western"""" align=""""center"""">Informed Consent</h3><br/>
        <b>Name of the project: </b>Experiment errors <br/>
        <b>Principal Researcher: </b>Gorka Navarrete, Centro de Neurociencia Social y Cognitiva (CSCN).<br/>
        <b>Goal: </b>To create a live example of how a jsPsychR survey and it's data preparation works.<br/><br/>
        <b>Procedure: </b>You will have to answer 2 or 3 questions about errors found in research protocols.<br/><br/>
        <b>Associated risks: </b>There are no risks associated with this study. Although by responding, you reveal private information, it will be used only for research purposes, protecting your privacy and confidentiality, since only grouped data will be analyzed and not individual data.<br/><br/>
         <b>Benefits: </b>There may be no immediate benefits to you as a result of participating in this study. However, the results will improve our understanding of what types of errors are more common in our research.<br/><br/>
        <b>Confidentiality: </b>By selecting """"I agree to participate"""", you give permission to the research team to analyze your data. However, all information produced in this research is confidential, and therefore will only be used for research purposes. We will not keep your name in our database, nor will there be any way to later associate the information you give us with your identity. The information we will use, both in reports and in articles derived from the study, will consist only of grouped data (for example, averages). Confidential information will be stored with a password and privately only on the computer of the responsible researcher. If you want more information or know the results of this study, you can contact the person responsible for the project (Gorka Navarrete, email: <a href=""""mailto:gorkang@gmail.com"""">gorkang@gmail.com</a>)<br/><br/>
        <b>Voluntariness: </b>Participation in this study is voluntary. You can withdraw whenever you wish without any negative consequences for this. Your withdrawal does not mean that you cannot participate in another of our studies in the future. If you have a claim or feel that your rights were violated by any of the people carrying out this study, you can contact the University Ethics Committee Universidad Adolfo Ibáñez, whose president is Paola Cañon in the phone number (562) 2331-1277, o the email: <a href=""""mailto:paola.canon.g@uai.cl"""">paola.canon.g@uai.cl</a>. <br/><br/>
        <em>When selecting “I agree to participate” you declare that you are willing to voluntarily participate in this research: </em>
        <BR><BR>
        </div>",0,NA,NA,38_Consent_original_2023-11-03T122324_hgprnh8su6c7qt4jhng0.csv
38_Consent_original_2023-11-03T133336_ojnumx2saz28r671fgws.csv,38,Consent,original,2023-11-03T133336,ojnumx2saz28r671fgws,NA,Consent,instructions,1,686,0.0-2.0,"[{""""page_index"""":0,""""viewing_time"""":685}]",685,Consent_000,,,NA,NA,38_Consent_original_2023-11-03T133336_ojnumx2saz28r671fgws.csv
38_Consent_original_2023-11-03T133336_ojnumx2saz28r671fgws.csv,38,Consent,original,2023-11-03T133336,ojnumx2saz28r671fgws,NA,Consent,html-button-response,2,2441,0.0-3.0,,1755,Consent_001,"
        <div title=""""logo""""><p style=""""margin-bottom: 0.2in; line-height: 100%""""><img src=""""controllers/media/logo.png"""" name=""""UAI"""" align=""""bottom"""" width=""""158"""" height=""""59"""" border=""""0""""/></p></div>
        <div>
        <h3 class=""""western"""" align=""""center"""">Informed Consent</h3><br/>
        <b>Name of the project: </b>Experiment errors <br/>
        <b>Principal Researcher: </b>Gorka Navarrete, Centro de Neurociencia Social y Cognitiva (CSCN).<br/>
        <b>Goal: </b>To create a live example of how a jsPsychR survey and it's data preparation works.<br/><br/>
        <b>Procedure: </b>You will have to answer 2 or 3 questions about errors found in research protocols.<br/><br/>
        <b>Associated risks: </b>There are no risks associated with this study. Although by responding, you reveal private information, it will be used only for research purposes, protecting your privacy and confidentiality, since only grouped data will be analyzed and not individual data.<br/><br/>
         <b>Benefits: </b>There may be no immediate benefits to you as a result of participating in this study. However, the results will improve our understanding of what types of errors are more common in our research.<br/><br/>
        <b>Confidentiality: </b>By selecting """"I agree to participate"""", you give permission to the research team to analyze your data. However, all information produced in this research is confidential, and therefore will only be used for research purposes. We will not keep your name in our database, nor will there be any way to later associate the information you give us with your identity. The information we will use, both in reports and in articles derived from the study, will consist only of grouped data (for example, averages). Confidential information will be stored with a password and privately only on the computer of the responsible researcher. If you want more information or know the results of this study, you can contact the person responsible for the project (Gorka Navarrete, email: <a href=""""mailto:gorkang@gmail.com"""">gorkang@gmail.com</a>)<br/><br/>
        <b>Voluntariness: </b>Participation in this study is voluntary. You can withdraw whenever you wish without any negative consequences for this. Your withdrawal does not mean that you cannot participate in another of our studies in the future. If you have a claim or feel that your rights were violated by any of the people carrying out this study, you can contact the University Ethics Committee Universidad Adolfo Ibáñez, whose president is Paola Cañon in the phone number (562) 2331-1277, o the email: <a href=""""mailto:paola.canon.g@uai.cl"""">paola.canon.g@uai.cl</a>. <br/><br/>
        <em>When selecting “I agree to participate” you declare that you are willing to voluntarily participate in this research: </em>
        <BR><BR>
        </div>",0,NA,NA,38_Consent_original_2023-11-03T133336_ojnumx2saz28r671fgws.csv
38_Consent_original_2023-11-03T133645_199.csv,38,Consent,original,2023-11-03T133645,199,NA,Consent,instructions,1,320,0.0-2.0,"[{""""page_index"""":0,""""viewing_time"""":317}]",317,Consent_000,,,NA,NA,38_Consent_original_2023-11-03T133645_199.csv
38_Consent_original_2023-11-03T133645_199.csv,38,Consent,original,2023-11-03T133645,199,NA,Consent,html-button-response,2,870,0.0-3.0,,549.5,Consent_001,"
        <div title=""""logo""""><p style=""""margin-bottom: 0.2in; line-height: 100%""""><img src=""""controllers/media/logo.png"""" name=""""UAI"""" align=""""bottom"""" width=""""158"""" height=""""59"""" border=""""0""""/></p></div>
        <div>
        <h3 class=""""western"""" align=""""center"""">Informed Consent</h3><br/>
        <b>Name of the project: </b>Experiment errors <br/>
        <b>Principal Researcher: </b>Gorka Navarrete, Centro de Neurociencia Social y Cognitiva (CSCN).<br/>
        <b>Goal: </b>To create a live example of how a jsPsychR survey and it's data preparation works.<br/><br/>
        <b>Procedure: </b>You will have to answer 2 or 3 questions about errors found in research protocols.<br/><br/>
        <b>Associated risks: </b>There are no risks associated with this study. Although by responding, you reveal private information, it will be used only for research purposes, protecting your privacy and confidentiality, since only grouped data will be analyzed and not individual data.<br/><br/>
         <b>Benefits: </b>There may be no immediate benefits to you as a result of participating in this study. However, the results will improve our understanding of what types of errors are more common in our research.<br/><br/>
        <b>Confidentiality: </b>By selecting """"I agree to participate"""", you give permission to the research team to analyze your data. However, all information produced in this research is confidential, and therefore will only be used for research purposes. We will not keep your name in our database, nor will there be any way to later associate the information you give us with your identity. The information we will use, both in reports and in articles derived from the study, will consist only of grouped data (for example, averages). Confidential information will be stored with a password and privately only on the computer of the responsible researcher. If you want more information or know the results of this study, you can contact the person responsible for the project (Gorka Navarrete, email: <a href=""""mailto:gorkang@gmail.com"""">gorkang@gmail.com</a>)<br/><br/>
        <b>Voluntariness: </b>Participation in this study is voluntary. You can withdraw whenever you wish without any negative consequences for this. Your withdrawal does not mean that you cannot participate in another of our studies in the future. If you have a claim or feel that your rights were violated by any of the people carrying out this study, you can contact the University Ethics Committee Universidad Adolfo Ibáñez, whose president is Paola Cañon in the phone number (562) 2331-1277, o the email: <a href=""""mailto:paola.canon.g@uai.cl"""">paola.canon.g@uai.cl</a>. <br/><br/>
        <em>When selecting “I agree to participate” you declare that you are willing to voluntarily participate in this research: </em>
        <BR><BR>
        </div>",0,NA,NA,38_Consent_original_2023-11-03T133645_199.csv
38_Consent_original_2023-11-03T133647_197.csv,38,Consent,original,2023-11-03T133647,197,NA,Consent,instructions,1,387,0.0-2.0,"[{""""page_index"""":0,""""viewing_time"""":385}]",385,Consent_000,,,NA,NA,38_Consent_original_2023-11-03T133647_197.csv
38_Consent_original_2023-11-03T133647_197.csv,38,Consent,original,2023-11-03T133647,197,NA,Consent,html-button-response,2,976,0.0-3.0,,587.6000000005588,Consent_001,"
        <div title=""""logo""""><p style=""""margin-bottom: 0.2in; line-height: 100%""""><img src=""""controllers/media/logo.png"""" name=""""UAI"""" align=""""bottom"""" width=""""158"""" height=""""59"""" border=""""0""""/></p></div>
        <div>
        <h3 class=""""western"""" align=""""center"""">Informed Consent</h3><br/>
        <b>Name of the project: </b>Experiment errors <br/>
        <b>Principal Researcher: </b>Gorka Navarrete, Centro de Neurociencia Social y Cognitiva (CSCN).<br/>
        <b>Goal: </b>To create a live example of how a jsPsychR survey and it's data preparation works.<br/><br/>
        <b>Procedure: </b>You will have to answer 2 or 3 questions about errors found in research protocols.<br/><br/>
        <b>Associated risks: </b>There are no risks associated with this study. Although by responding, you reveal private information, it will be used only for research purposes, protecting your privacy and confidentiality, since only grouped data will be analyzed and not individual data.<br/><br/>
         <b>Benefits: </b>There may be no immediate benefits to you as a result of participating in this study. However, the results will improve our understanding of what types of errors are more common in our research.<br/><br/>
        <b>Confidentiality: </b>By selecting """"I agree to participate"""", you give permission to the research team to analyze your data. However, all information produced in this research is confidential, and therefore will only be used for research purposes. We will not keep your name in our database, nor will there be any way to later associate the information you give us with your identity. The information we will use, both in reports and in articles derived from the study, will consist only of grouped data (for example, averages). Confidential information will be stored with a password and privately only on the computer of the responsible researcher. If you want more information or know the results of this study, you can contact the person responsible for the project (Gorka Navarrete, email: <a href=""""mailto:gorkang@gmail.com"""">gorkang@gmail.com</a>)<br/><br/>
        <b>Voluntariness: </b>Participation in this study is voluntary. You can withdraw whenever you wish without any negative consequences for this. Your withdrawal does not mean that you cannot participate in another of our studies in the future. If you have a claim or feel that your rights were violated by any of the people carrying out this study, you can contact the University Ethics Committee Universidad Adolfo Ibáñez, whose president is Paola Cañon in the phone number (562) 2331-1277, o the email: <a href=""""mailto:paola.canon.g@uai.cl"""">paola.canon.g@uai.cl</a>. <br/><br/>
        <em>When selecting “I agree to participate” you declare that you are willing to voluntarily participate in this research: </em>
        <BR><BR>
        </div>",0,NA,NA,38_Consent_original_2023-11-03T133647_197.csv
38_Consent_original_2023-11-03T133647_198.csv,38,Consent,original,2023-11-03T133647,198,NA,Consent,instructions,1,401,0.0-2.0,"[{""""page_index"""":0,""""viewing_time"""":397}]",397,Consent_000,,,NA,NA,38_Consent_original_2023-11-03T133647_198.csv
38_Consent_original_2023-11-03T133647_198.csv,38,Consent,original,2023-11-03T133647,198,NA,Consent,html-button-response,2,986,0.0-3.0,,583,Consent_001,"
        <div title=""""logo""""><p style=""""margin-bottom: 0.2in; line-height: 100%""""><img src=""""controllers/media/logo.png"""" name=""""UAI"""" align=""""bottom"""" width=""""158"""" height=""""59"""" border=""""0""""/></p></div>
        <div>
        <h3 class=""""western"""" align=""""center"""">Informed Consent</h3><br/>
        <b>Name of the project: </b>Experiment errors <br/>
        <b>Principal Researcher: </b>Gorka Navarrete, Centro de Neurociencia Social y Cognitiva (CSCN).<br/>
        <b>Goal: </b>To create a live example of how a jsPsychR survey and it's data preparation works.<br/><br/>
        <b>Procedure: </b>You will have to answer 2 or 3 questions about errors found in research protocols.<br/><br/>
        <b>Associated risks: </b>There are no risks associated with this study. Although by responding, you reveal private information, it will be used only for research purposes, protecting your privacy and confidentiality, since only grouped data will be analyzed and not individual data.<br/><br/>
         <b>Benefits: </b>There may be no immediate benefits to you as a result of participating in this study. However, the results will improve our understanding of what types of errors are more common in our research.<br/><br/>
        <b>Confidentiality: </b>By selecting """"I agree to participate"""", you give permission to the research team to analyze your data. However, all information produced in this research is confidential, and therefore will only be used for research purposes. We will not keep your name in our database, nor will there be any way to later associate the information you give us with your identity. The information we will use, both in reports and in articles derived from the study, will consist only of grouped data (for example, averages). Confidential information will be stored with a password and privately only on the computer of the responsible researcher. If you want more information or know the results of this study, you can contact the person responsible for the project (Gorka Navarrete, email: <a href=""""mailto:gorkang@gmail.com"""">gorkang@gmail.com</a>)<br/><br/>
        <b>Voluntariness: </b>Participation in this study is voluntary. You can withdraw whenever you wish without any negative consequences for this. Your withdrawal does not mean that you cannot participate in another of our studies in the future. If you have a claim or feel that your rights were violated by any of the people carrying out this study, you can contact the University Ethics Committee Universidad Adolfo Ibáñez, whose president is Paola Cañon in the phone number (562) 2331-1277, o the email: <a href=""""mailto:paola.canon.g@uai.cl"""">paola.canon.g@uai.cl</a>. <br/><br/>
        <em>When selecting “I agree to participate” you declare that you are willing to voluntarily participate in this research: </em>
        <BR><BR>
        </div>",0,NA,NA,38_Consent_original_2023-11-03T133647_198.csv
38_Consent_original_2023-11-03T133647_200.csv,38,Consent,original,2023-11-03T133647,200,NA,Consent,instructions,1,391,0.0-2.0,"[{""""page_index"""":0,""""viewing_time"""":388}]",388,Consent_000,,,NA,NA,38_Consent_original_2023-11-03T133647_200.csv
38_Consent_original_2023-11-03T133647_200.csv,38,Consent,original,2023-11-03T133647,200,NA,Consent,html-button-response,2,1022,0.0-3.0,,629.2000000001863,Consent_001,"
        <div title=""""logo""""><p style=""""margin-bottom: 0.2in; line-height: 100%""""><img src=""""controllers/media/logo.png"""" name=""""UAI"""" align=""""bottom"""" width=""""158"""" height=""""59"""" border=""""0""""/></p></div>
        <div>
        <h3 class=""""western"""" align=""""center"""">Informed Consent</h3><br/>
        <b>Name of the project: </b>Experiment errors <br/>
        <b>Principal Researcher: </b>Gorka Navarrete, Centro de Neurociencia Social y Cognitiva (CSCN).<br/>
        <b>Goal: </b>To create a live example of how a jsPsychR survey and it's data preparation works.<br/><br/>
        <b>Procedure: </b>You will have to answer 2 or 3 questions about errors found in research protocols.<br/><br/>
        <b>Associated risks: </b>There are no risks associated with this study. Although by responding, you reveal private information, it will be used only for research purposes, protecting your privacy and confidentiality, since only grouped data will be analyzed and not individual data.<br/><br/>
         <b>Benefits: </b>There may be no immediate benefits to you as a result of participating in this study. However, the results will improve our understanding of what types of errors are more common in our research.<br/><br/>
        <b>Confidentiality: </b>By selecting """"I agree to participate"""", you give permission to the research team to analyze your data. However, all information produced in this research is confidential, and therefore will only be used for research purposes. We will not keep your name in our database, nor will there be any way to later associate the information you give us with your identity. The information we will use, both in reports and in articles derived from the study, will consist only of grouped data (for example, averages). Confidential information will be stored with a password and privately only on the computer of the responsible researcher. If you want more information or know the results of this study, you can contact the person responsible for the project (Gorka Navarrete, email: <a href=""""mailto:gorkang@gmail.com"""">gorkang@gmail.com</a>)<br/><br/>
        <b>Voluntariness: </b>Participation in this study is voluntary. You can withdraw whenever you wish without any negative consequences for this. Your withdrawal does not mean that you cannot participate in another of our studies in the future. If you have a claim or feel that your rights were violated by any of the people carrying out this study, you can contact the University Ethics Committee Universidad Adolfo Ibáñez, whose president is Paola Cañon in the phone number (562) 2331-1277, o the email: <a href=""""mailto:paola.canon.g@uai.cl"""">paola.canon.g@uai.cl</a>. <br/><br/>
        <em>When selecting “I agree to participate” you declare that you are willing to voluntarily participate in this research: </em>
        <BR><BR>
        </div>",0,NA,NA,38_Consent_original_2023-11-03T133647_200.csv
38_Consent_original_2023-11-03T133649_195.csv,38,Consent,original,2023-11-03T133649,195,NA,Consent,instructions,1,613,0.0-2.0,"[{""""page_index"""":0,""""viewing_time"""":609}]",609,Consent_000,,,NA,NA,38_Consent_original_2023-11-03T133649_195.csv
38_Consent_original_2023-11-03T133649_195.csv,38,Consent,original,2023-11-03T133649,195,NA,Consent,html-button-response,2,1499,0.0-3.0,,883.3999999994412,Consent_001,"
        <div title=""""logo""""><p style=""""margin-bottom: 0.2in; line-height: 100%""""><img src=""""controllers/media/logo.png"""" name=""""UAI"""" align=""""bottom"""" width=""""158"""" height=""""59"""" border=""""0""""/></p></div>
        <div>
        <h3 class=""""western"""" align=""""center"""">Informed Consent</h3><br/>
        <b>Name of the project: </b>Experiment errors <br/>
        <b>Principal Researcher: </b>Gorka Navarrete, Centro de Neurociencia Social y Cognitiva (CSCN).<br/>
        <b>Goal: </b>To create a live example of how a jsPsychR survey and it's data preparation works.<br/><br/>
        <b>Procedure: </b>You will have to answer 2 or 3 questions about errors found in research protocols.<br/><br/>
        <b>Associated risks: </b>There are no risks associated with this study. Although by responding, you reveal private information, it will be used only for research purposes, protecting your privacy and confidentiality, since only grouped data will be analyzed and not individual data.<br/><br/>
         <b>Benefits: </b>There may be no immediate benefits to you as a result of participating in this study. However, the results will improve our understanding of what types of errors are more common in our research.<br/><br/>
        <b>Confidentiality: </b>By selecting """"I agree to participate"""", you give permission to the research team to analyze your data. However, all information produced in this research is confidential, and therefore will only be used for research purposes. We will not keep your name in our database, nor will there be any way to later associate the information you give us with your identity. The information we will use, both in reports and in articles derived from the study, will consist only of grouped data (for example, averages). Confidential information will be stored with a password and privately only on the computer of the responsible researcher. If you want more information or know the results of this study, you can contact the person responsible for the project (Gorka Navarrete, email: <a href=""""mailto:gorkang@gmail.com"""">gorkang@gmail.com</a>)<br/><br/>
        <b>Voluntariness: </b>Participation in this study is voluntary. You can withdraw whenever you wish without any negative consequences for this. Your withdrawal does not mean that you cannot participate in another of our studies in the future. If you have a claim or feel that your rights were violated by any of the people carrying out this study, you can contact the University Ethics Committee Universidad Adolfo Ibáñez, whose president is Paola Cañon in the phone number (562) 2331-1277, o the email: <a href=""""mailto:paola.canon.g@uai.cl"""">paola.canon.g@uai.cl</a>. <br/><br/>
        <em>When selecting “I agree to participate” you declare that you are willing to voluntarily participate in this research: </em>
        <BR><BR>
        </div>",0,NA,NA,38_Consent_original_2023-11-03T133649_195.csv
38_Consent_original_2023-11-03T133651_194.csv,38,Consent,original,2023-11-03T133651,194,NA,Consent,instructions,1,810,0.0-2.0,"[{""""page_index"""":0,""""viewing_time"""":791}]",792,Consent_000,,,NA,NA,38_Consent_original_2023-11-03T133651_194.csv
38_Consent_original_2023-11-03T133651_194.csv,38,Consent,original,2023-11-03T133651,194,NA,Consent,html-button-response,2,2151,0.0-3.0,,1338.4000000003725,Consent_001,"
        <div title=""""logo""""><p style=""""margin-bottom: 0.2in; line-height: 100%""""><img src=""""controllers/media/logo.png"""" name=""""UAI"""" align=""""bottom"""" width=""""158"""" height=""""59"""" border=""""0""""/></p></div>
        <div>
        <h3 class=""""western"""" align=""""center"""">Informed Consent</h3><br/>
        <b>Name of the project: </b>Experiment errors <br/>
        <b>Principal Researcher: </b>Gorka Navarrete, Centro de Neurociencia Social y Cognitiva (CSCN).<br/>
        <b>Goal: </b>To create a live example of how a jsPsychR survey and it's data preparation works.<br/><br/>
        <b>Procedure: </b>You will have to answer 2 or 3 questions about errors found in research protocols.<br/><br/>
        <b>Associated risks: </b>There are no risks associated with this study. Although by responding, you reveal private information, it will be used only for research purposes, protecting your privacy and confidentiality, since only grouped data will be analyzed and not individual data.<br/><br/>
         <b>Benefits: </b>There may be no immediate benefits to you as a result of participating in this study. However, the results will improve our understanding of what types of errors are more common in our research.<br/><br/>
        <b>Confidentiality: </b>By selecting """"I agree to participate"""", you give permission to the research team to analyze your data. However, all information produced in this research is confidential, and therefore will only be used for research purposes. We will not keep your name in our database, nor will there be any way to later associate the information you give us with your identity. The information we will use, both in reports and in articles derived from the study, will consist only of grouped data (for example, averages). Confidential information will be stored with a password and privately only on the computer of the responsible researcher. If you want more information or know the results of this study, you can contact the person responsible for the project (Gorka Navarrete, email: <a href=""""mailto:gorkang@gmail.com"""">gorkang@gmail.com</a>)<br/><br/>
        <b>Voluntariness: </b>Participation in this study is voluntary. You can withdraw whenever you wish without any negative consequences for this. Your withdrawal does not mean that you cannot participate in another of our studies in the future. If you have a claim or feel that your rights were violated by any of the people carrying out this study, you can contact the University Ethics Committee Universidad Adolfo Ibáñez, whose president is Paola Cañon in the phone number (562) 2331-1277, o the email: <a href=""""mailto:paola.canon.g@uai.cl"""">paola.canon.g@uai.cl</a>. <br/><br/>
        <em>When selecting “I agree to participate” you declare that you are willing to voluntarily participate in this research: </em>
        <BR><BR>
        </div>",0,NA,NA,38_Consent_original_2023-11-03T133651_194.csv
38_Consent_original_2023-11-03T133651_196.csv,38,Consent,original,2023-11-03T133651,196,NA,Consent,instructions,1,778,0.0-2.0,"[{""""page_index"""":0,""""viewing_time"""":773}]",773,Consent_000,,,NA,NA,38_Consent_original_2023-11-03T133651_196.csv
38_Consent_original_2023-11-03T133651_196.csv,38,Consent,original,2023-11-03T133651,196,NA,Consent,html-button-response,2,2000,0.0-3.0,,1219.0999999996275,Consent_001,"
        <div title=""""logo""""><p style=""""margin-bottom: 0.2in; line-height: 100%""""><img src=""""controllers/media/logo.png"""" name=""""UAI"""" align=""""bottom"""" width=""""158"""" height=""""59"""" border=""""0""""/></p></div>
        <div>
        <h3 class=""""western"""" align=""""center"""">Informed Consent</h3><br/>
        <b>Name of the project: </b>Experiment errors <br/>
        <b>Principal Researcher: </b>Gorka Navarrete, Centro de Neurociencia Social y Cognitiva (CSCN).<br/>
        <b>Goal: </b>To create a live example of how a jsPsychR survey and it's data preparation works.<br/><br/>
        <b>Procedure: </b>You will have to answer 2 or 3 questions about errors found in research protocols.<br/><br/>
        <b>Associated risks: </b>There are no risks associated with this study. Although by responding, you reveal private information, it will be used only for research purposes, protecting your privacy and confidentiality, since only grouped data will be analyzed and not individual data.<br/><br/>
         <b>Benefits: </b>There may be no immediate benefits to you as a result of participating in this study. However, the results will improve our understanding of what types of errors are more common in our research.<br/><br/>
        <b>Confidentiality: </b>By selecting """"I agree to participate"""", you give permission to the research team to analyze your data. However, all information produced in this research is confidential, and therefore will only be used for research purposes. We will not keep your name in our database, nor will there be any way to later associate the information you give us with your identity. The information we will use, both in reports and in articles derived from the study, will consist only of grouped data (for example, averages). Confidential information will be stored with a password and privately only on the computer of the responsible researcher. If you want more information or know the results of this study, you can contact the person responsible for the project (Gorka Navarrete, email: <a href=""""mailto:gorkang@gmail.com"""">gorkang@gmail.com</a>)<br/><br/>
        <b>Voluntariness: </b>Participation in this study is voluntary. You can withdraw whenever you wish without any negative consequences for this. Your withdrawal does not mean that you cannot participate in another of our studies in the future. If you have a claim or feel that your rights were violated by any of the people carrying out this study, you can contact the University Ethics Committee Universidad Adolfo Ibáñez, whose president is Paola Cañon in the phone number (562) 2331-1277, o the email: <a href=""""mailto:paola.canon.g@uai.cl"""">paola.canon.g@uai.cl</a>. <br/><br/>
        <em>When selecting “I agree to participate” you declare that you are willing to voluntarily participate in this research: </em>
        <BR><BR>
        </div>",0,NA,NA,38_Consent_original_2023-11-03T133651_196.csv
38_Consent_original_2023-11-03T133653_192.csv,38,Consent,original,2023-11-03T133653,192,NA,Consent,instructions,1,947,0.0-2.0,"[{""""page_index"""":0,""""viewing_time"""":941}]",942,Consent_000,,,NA,NA,38_Consent_original_2023-11-03T133653_192.csv
38_Consent_original_2023-11-03T133653_192.csv,38,Consent,original,2023-11-03T133653,192,NA,Consent,html-button-response,2,2651,0.0-3.0,,1698.7000000001863,Consent_001,"
        <div title=""""logo""""><p style=""""margin-bottom: 0.2in; line-height: 100%""""><img src=""""controllers/media/logo.png"""" name=""""UAI"""" align=""""bottom"""" width=""""158"""" height=""""59"""" border=""""0""""/></p></div>
        <div>
        <h3 class=""""western"""" align=""""center"""">Informed Consent</h3><br/>
        <b>Name of the project: </b>Experiment errors <br/>
        <b>Principal Researcher: </b>Gorka Navarrete, Centro de Neurociencia Social y Cognitiva (CSCN).<br/>
        <b>Goal: </b>To create a live example of how a jsPsychR survey and it's data preparation works.<br/><br/>
        <b>Procedure: </b>You will have to answer 2 or 3 questions about errors found in research protocols.<br/><br/>
        <b>Associated risks: </b>There are no risks associated with this study. Although by responding, you reveal private information, it will be used only for research purposes, protecting your privacy and confidentiality, since only grouped data will be analyzed and not individual data.<br/><br/>
         <b>Benefits: </b>There may be no immediate benefits to you as a result of participating in this study. However, the results will improve our understanding of what types of errors are more common in our research.<br/><br/>
        <b>Confidentiality: </b>By selecting """"I agree to participate"""", you give permission to the research team to analyze your data. However, all information produced in this research is confidential, and therefore will only be used for research purposes. We will not keep your name in our database, nor will there be any way to later associate the information you give us with your identity. The information we will use, both in reports and in articles derived from the study, will consist only of grouped data (for example, averages). Confidential information will be stored with a password and privately only on the computer of the responsible researcher. If you want more information or know the results of this study, you can contact the person responsible for the project (Gorka Navarrete, email: <a href=""""mailto:gorkang@gmail.com"""">gorkang@gmail.com</a>)<br/><br/>
        <b>Voluntariness: </b>Participation in this study is voluntary. You can withdraw whenever you wish without any negative consequences for this. Your withdrawal does not mean that you cannot participate in another of our studies in the future. If you have a claim or feel that your rights were violated by any of the people carrying out this study, you can contact the University Ethics Committee Universidad Adolfo Ibáñez, whose president is Paola Cañon in the phone number (562) 2331-1277, o the email: <a href=""""mailto:paola.canon.g@uai.cl"""">paola.canon.g@uai.cl</a>. <br/><br/>
        <em>When selecting “I agree to participate” you declare that you are willing to voluntarily participate in this research: </em>
        <BR><BR>
        </div>",0,NA,NA,38_Consent_original_2023-11-03T133653_192.csv
38_Consent_original_2023-11-03T133656_193.csv,38,Consent,original,2023-11-03T133656,193,NA,Consent,instructions,1,1034,0.0-2.0,"[{""""page_index"""":0,""""viewing_time"""":1028}]",1028,Consent_000,,,NA,NA,38_Consent_original_2023-11-03T133656_193.csv
38_Consent_original_2023-11-03T133656_193.csv,38,Consent,original,2023-11-03T133656,193,NA,Consent,html-button-response,2,4769,0.0-3.0,,3729.5,Consent_001,"
        <div title=""""logo""""><p style=""""margin-bottom: 0.2in; line-height: 100%""""><img src=""""controllers/media/logo.png"""" name=""""UAI"""" align=""""bottom"""" width=""""158"""" height=""""59"""" border=""""0""""/></p></div>
        <div>
        <h3 class=""""western"""" align=""""center"""">Informed Consent</h3><br/>
        <b>Name of the project: </b>Experiment errors <br/>
        <b>Principal Researcher: </b>Gorka Navarrete, Centro de Neurociencia Social y Cognitiva (CSCN).<br/>
        <b>Goal: </b>To create a live example of how a jsPsychR survey and it's data preparation works.<br/><br/>
        <b>Procedure: </b>You will have to answer 2 or 3 questions about errors found in research protocols.<br/><br/>
        <b>Associated risks: </b>There are no risks associated with this study. Although by responding, you reveal private information, it will be used only for research purposes, protecting your privacy and confidentiality, since only grouped data will be analyzed and not individual data.<br/><br/>
         <b>Benefits: </b>There may be no immediate benefits to you as a result of participating in this study. However, the results will improve our understanding of what types of errors are more common in our research.<br/><br/>
        <b>Confidentiality: </b>By selecting """"I agree to participate"""", you give permission to the research team to analyze your data. However, all information produced in this research is confidential, and therefore will only be used for research purposes. We will not keep your name in our database, nor will there be any way to later associate the information you give us with your identity. The information we will use, both in reports and in articles derived from the study, will consist only of grouped data (for example, averages). Confidential information will be stored with a password and privately only on the computer of the responsible researcher. If you want more information or know the results of this study, you can contact the person responsible for the project (Gorka Navarrete, email: <a href=""""mailto:gorkang@gmail.com"""">gorkang@gmail.com</a>)<br/><br/>
        <b>Voluntariness: </b>Participation in this study is voluntary. You can withdraw whenever you wish without any negative consequences for this. Your withdrawal does not mean that you cannot participate in another of our studies in the future. If you have a claim or feel that your rights were violated by any of the people carrying out this study, you can contact the University Ethics Committee Universidad Adolfo Ibáñez, whose president is Paola Cañon in the phone number (562) 2331-1277, o the email: <a href=""""mailto:paola.canon.g@uai.cl"""">paola.canon.g@uai.cl</a>. <br/><br/>
        <em>When selecting “I agree to participate” you declare that you are willing to voluntarily participate in this research: </em>
        <BR><BR>
        </div>",0,NA,NA,38_Consent_original_2023-11-03T133656_193.csv
38_Consent_original_2023-11-03T133658_191.csv,38,Consent,original,2023-11-03T133658,191,NA,Consent,instructions,1,2747,0.0-2.0,"[{""""page_index"""":0,""""viewing_time"""":2731}]",2733,Consent_000,,,NA,NA,38_Consent_original_2023-11-03T133658_191.csv
38_Consent_original_2023-11-03T133658_191.csv,38,Consent,original,2023-11-03T133658,191,NA,Consent,html-button-response,2,5520,0.0-3.0,,2753.5,Consent_001,"
        <div title=""""logo""""><p style=""""margin-bottom: 0.2in; line-height: 100%""""><img src=""""controllers/media/logo.png"""" name=""""UAI"""" align=""""bottom"""" width=""""158"""" height=""""59"""" border=""""0""""/></p></div>
        <div>
        <h3 class=""""western"""" align=""""center"""">Informed Consent</h3><br/>
        <b>Name of the project: </b>Experiment errors <br/>
        <b>Principal Researcher: </b>Gorka Navarrete, Centro de Neurociencia Social y Cognitiva (CSCN).<br/>
        <b>Goal: </b>To create a live example of how a jsPsychR survey and it's data preparation works.<br/><br/>
        <b>Procedure: </b>You will have to answer 2 or 3 questions about errors found in research protocols.<br/><br/>
        <b>Associated risks: </b>There are no risks associated with this study. Although by responding, you reveal private information, it will be used only for research purposes, protecting your privacy and confidentiality, since only grouped data will be analyzed and not individual data.<br/><br/>
         <b>Benefits: </b>There may be no immediate benefits to you as a result of participating in this study. However, the results will improve our understanding of what types of errors are more common in our research.<br/><br/>
        <b>Confidentiality: </b>By selecting """"I agree to participate"""", you give permission to the research team to analyze your data. However, all information produced in this research is confidential, and therefore will only be used for research purposes. We will not keep your name in our database, nor will there be any way to later associate the information you give us with your identity. The information we will use, both in reports and in articles derived from the study, will consist only of grouped data (for example, averages). Confidential information will be stored with a password and privately only on the computer of the responsible researcher. If you want more information or know the results of this study, you can contact the person responsible for the project (Gorka Navarrete, email: <a href=""""mailto:gorkang@gmail.com"""">gorkang@gmail.com</a>)<br/><br/>
        <b>Voluntariness: </b>Participation in this study is voluntary. You can withdraw whenever you wish without any negative consequences for this. Your withdrawal does not mean that you cannot participate in another of our studies in the future. If you have a claim or feel that your rights were violated by any of the people carrying out this study, you can contact the University Ethics Committee Universidad Adolfo Ibáñez, whose president is Paola Cañon in the phone number (562) 2331-1277, o the email: <a href=""""mailto:paola.canon.g@uai.cl"""">paola.canon.g@uai.cl</a>. <br/><br/>
        <em>When selecting “I agree to participate” you declare that you are willing to voluntarily participate in this research: </em>
        <BR><BR>
        </div>",0,NA,NA,38_Consent_original_2023-11-03T133658_191.csv
38_Consent_original_2023-11-03T133710_190.csv,38,Consent,original,2023-11-03T133710,190,NA,Consent,instructions,1,279,0.0-2.0,"[{""""page_index"""":0,""""viewing_time"""":277}]",277,Consent_000,,,NA,NA,38_Consent_original_2023-11-03T133710_190.csv
38_Consent_original_2023-11-03T133710_190.csv,38,Consent,original,2023-11-03T133710,190,NA,Consent,html-button-response,2,695,0.0-3.0,,415.30000000074506,Consent_001,"
        <div title=""""logo""""><p style=""""margin-bottom: 0.2in; line-height: 100%""""><img src=""""controllers/media/logo.png"""" name=""""UAI"""" align=""""bottom"""" width=""""158"""" height=""""59"""" border=""""0""""/></p></div>
        <div>
        <h3 class=""""western"""" align=""""center"""">Informed Consent</h3><br/>
        <b>Name of the project: </b>Experiment errors <br/>
        <b>Principal Researcher: </b>Gorka Navarrete, Centro de Neurociencia Social y Cognitiva (CSCN).<br/>
        <b>Goal: </b>To create a live example of how a jsPsychR survey and it's data preparation works.<br/><br/>
        <b>Procedure: </b>You will have to answer 2 or 3 questions about errors found in research protocols.<br/><br/>
        <b>Associated risks: </b>There are no risks associated with this study. Although by responding, you reveal private information, it will be used only for research purposes, protecting your privacy and confidentiality, since only grouped data will be analyzed and not individual data.<br/><br/>
         <b>Benefits: </b>There may be no immediate benefits to you as a result of participating in this study. However, the results will improve our understanding of what types of errors are more common in our research.<br/><br/>
        <b>Confidentiality: </b>By selecting """"I agree to participate"""", you give permission to the research team to analyze your data. However, all information produced in this research is confidential, and therefore will only be used for research purposes. We will not keep your name in our database, nor will there be any way to later associate the information you give us with your identity. The information we will use, both in reports and in articles derived from the study, will consist only of grouped data (for example, averages). Confidential information will be stored with a password and privately only on the computer of the responsible researcher. If you want more information or know the results of this study, you can contact the person responsible for the project (Gorka Navarrete, email: <a href=""""mailto:gorkang@gmail.com"""">gorkang@gmail.com</a>)<br/><br/>
